Folder: MIEL/Data

Note: Data/AccuDrive_Stability.txt
1 12.80378486055777
2 12.828685258964144
3 12.818725099601593
4 12.858565737051794
5 12.80378486055777
6 12.788844621513945
7 12.80378486055777
8 12.788844621513945
9 12.80378486055777
10 12.80378486055777
11 12.758964143426295
12 12.758964143426295
13 12.828685258964144
14 12.878486055776893
15 12.878486055776893
16 12.908366533864543
17 12.878486055776893
18 12.848605577689243
19 12.813745019920319
20 12.848605577689243
21 12.878486055776893
22 12.848605577689243
23 12.863545816733069
24 12.768924302788845

Note: Data/LCPLN20XIR_transmissionCurve.txt
407.06348074993156 40.39956104784402
423.06789412462365 39.887229841695145
437.06921129458993 39.74716179529668
450.0443333181279 39.979013150936055
474.7332873369218 41.40949476430562
491.3166567831402 43.185532207453385
503.1881500319314 44.578015372139724
514.2583648845908 46.283846913232
528.8799493659337 48.88146528928531
539.6348417115228 50.64328967316572
549.3300109479063 52.2295993019074
559.2397192318219 53.92875401050662
568.8341050086672 55.64793921658499
577.2550120883132 57.44407326446424
587.379259419761 59.114735747276406
600.0959367302253 61.88119204597541
612.6549527871543 64.10689101999085
622.350122023538 65.90130627930756
628.7084606787702 67.09731868984241
640.8952764346318 69.19767831329548
651.6691280448864 70.88261996262736
676.7492416294133 75.52625780065578
740.509248699936 84.22174135317138
754.8155106742086 85.75119874484363
773.947404433902 87.4947114198075
805.7261255816077 89.6351320382188
831.1103856856128 90.6806843422769
850.9475355806951 91.302508046197
866.9316212024451 91.52150248563268
883.9388798923457 91.7471265380954
897.8781304169328 91.7854206664893
907.4156383997811 91.866648450446
932.614995780495 91.56703385572753
953.9865774108202 91.2080880019744
969.1759419760972 90.90049095652786
987.3109775567924 90.51270581391249
1004.0269193048081 89.98948579890299
1023.3796243499681 89.51727225107156
1037.7615808320409 88.98404170926912
1054.5090975960222 88.34299968268519
1071.6727203266125 87.88648944046821
1091.4542183651126 87.28739907626132
1106.9968239667915 86.70234989246553
1120.6849141273606 85.88913152698939
1161.8878865979382 84.34377534111341
1178.9166989781954 83.43509149243732
1194.7143565824285 82.7758435285407
1208.056490055652 82.29809963685082
1222.1534018337743 81.77857596164016
1233.8103560350332 81.09757871170186
1250.2360642277165 80.55682138701829
1261.6280876516742 79.88652690124458
1274.1995769090413 79.32240066283538
1291.0922817261198 78.58018148644359

Note: Data/LongPassFilter_TransmissionCurve.txt
540.6603395515403 0.009858344118650164
542.9177287588097 0.009858344118650164
545.175117966079 0.009858344118650164
547.329898573018 0.011922021951664474
548.3559845763223 0.028113955718392702
548.5954046437599 0.05774625280783008
548.766418977644 0.13367901409951322
548.8006218444208 0.09399290192615972
549.0058390450816 0.25326649878188534
549.2110562457425 0.41836072542303615
549.4162734464034 0.5829258039018756
549.6214906470642 0.7268541040505712
549.8267078477251 0.8358586254867157
550.0319250483859 0.8951232196655904
550.3876348628647 0.9270837686691977
551.9472855878871 0.9445023640849206
553.6916317935045 0.9395716652997463
555.4359779991216 0.9504913591947176
557.693367206391 0.9514293945733605
559.9507564136604 0.9486874450050197
562.2081456209298 0.9371423941909532
564.4655348281992 0.9437807984090414
566.7229240354685 0.9486152884374318
568.9803132427379 0.9506356723298934
571.2377024500073 0.954387813844465
573.4950916572766 0.9519344905464759
575.752480864546 0.9547485966824046
578.0098700718154 0.9544599704120529
580.2672592790848 0.9543156572768771
582.5246484863542 0.9530889956278825
584.7820376936236 0.9522952733844154
587.0394269008929 0.9548207532499925
589.2968161081623 0.9558309451962234
591.5542053154315 0.9581399553590366
593.811594522701 0.9577070159535092
596.0689837299703 0.9513572380057725
598.3263729372397 0.9504192026271296
600.5837621445091 0.9551815360879321
602.8411513517785 0.9562638846017508
605.0985405590479 0.9536662481685858
607.3559297663172 0.9545321269796408
609.6133189735866 0.9573462331155695
611.870708180856 0.9556866320610475
614.1280973881253 0.9533054653306463
616.3854865953947 0.9528003693575309
618.6428758026641 0.9530168390602947
620.9002650099335 0.9524395865195913
623.1576542172029 0.9517180208437122
625.4150434244723 0.9528003693575309
627.6724326317416 0.954387813844465
629.929821839011 0.954387813844465
632.1872110462804 0.9541713441417012
634.4446002535497 0.9540991875741134
636.701989460819 0.9528003693575309
638.3437270661059 0.9518479026653704

Note: Data/Mirror_reflectionCurve.txt
206.61734248058124 91.06852151407311
220.7457889501326 91.41668068586218
234.87423541968394 91.32047880944678
248.36047977698294 90.87291103202847
260.5623199097773 90.3314827995255
271.4797558180669 89.78697508896796
282.3971917263566 89.23686832740214
293.9568297468986 88.69376037959668
306.80087199194526 88.17788417987705
320.9293184614966 87.73581365253963
335.0577649310479 87.40368812681979
349.1862114005993 87.16776447751536
363.3146578701506 87.0326237463604
374.2320937784403 87.00284697508897
389.002742360244 87.00284697508897
406.9844015033093 87.06469103849886
421.11284797286066 87.13111614364283
435.24129444241197 87.22273697832416
449.36974091196333 87.31206729213847
463.49818738151464 87.417431252022
477.626633851066 87.51363312843739
491.7550803206173 87.60067292138466
505.8835267901687 87.68084115173083
520.01197325972 87.74497573600776
534.1404197292713 87.79994823681656
548.2688661988226 87.82056292461986
562.397312668374 87.85950177935942
576.5257591379253 87.84804917502426
590.6542056074767 87.80452927855063
602.6419783695202 87.75032028469751
618.9110985465793 87.67626010999676
633.0395450161307 87.56402458751212
647.167991485682 87.44262698155936
661.2964379552334 87.28687156260109
675.4248844247848 87.1013393723714
689.553330894336 86.88603041087026
703.6817773638874 86.63865415723066
717.8102238334387 86.3317243610482
731.9386703029901 85.97898414752507
746.0671167725413 85.55294726625687
760.1955632420927 85.04216111290845
773.6818075993917 84.49083274021352
786.5258498444384 83.91385053380782
800.0120942017373 83.34259462956972
814.1405406712887 82.90510514396635
828.2689871408401 82.78828857974764
842.3974336103914 83.08376577159495
853.9570716309335 83.60502287747839
863.5901033147184 84.16832740213522
870.0121244372417 84.72011387900355
876.434145559765 85.28197864768683
882.8561666822884 85.88415658362989
889.2781878048118 86.476256227758
895.7002089273351 87.05071886120996
902.2973760804726 87.63961177612423
910.2732568592147 88.28589104845332
917.2781998990134 88.87740925266904
923.9571018664377 89.48042704626334
932.3057293257181 90.05153024911031
941.2965588972507 90.62383324860193
950.9295905810358 91.17274021352313
961.8470264893255 91.73124555160142
974.0488666221198 92.28135231316726
987.5351109794187 92.80473633128437
1001.6635574489701 93.2742931090262
1015.7920039185215 93.6797153024911
1029.9204503880728 94.03474603688126
1044.048896857624 94.3462568747978
1058.1773433271753 94.61882885797476
1072.3057897967267 94.8684956324814
1086.434236266278 95.0746425105144
1100.5626827358294 95.27620834681332
1114.6911292053808 95.44341637010676
1128.8195756749321 95.60146230993206
1142.9480221444835 95.74576512455516
1157.0764686140349 95.87403429310902
1171.2049150835862 95.99314137819475
1185.3333615531374 96.09621481721126
1199.4618080226887 96.19241669362665
1213.59025449224 96.27487544483985
1227.7187009617915 96.35962471692008
1241.8471474313428 96.43750242639922
1255.9755939008942 96.50392753154318
1270.10404

Note: README.md
# MIEL
Analysis codes and data for MIEL at TRIUMF

File: LSVN0583_CrystalPenner.csv
Pixel,Wavelength(nm),Intensity(Counts)
1,145.5,1667
14,148.2,1660
27,151,1678
40,153.7,1692
53,156.4,1585
66,159.2,1557
79,161.9,1635
92,164.7,1667
105,167.4,1671
118,170.1,1753
131,172.9,1643
144,175.6,1677
157,178.4,1665
170,181.2,1684
183,183.9,1629
196,186.7,1627
209,189.5,1612
222,192.2,1596
235,195,1621
248,197.8,1684
261,200.5,1629
274,203.3,1640
287,206.1,1592
300,208.9,1568
313,211.7,1737
326,214.5,1649
339,217.3,1691
352,220,1697
365,222.8,1653
378,225.6,1597
391,228.4,1665
404,231.2,1625
417,234,1633
430,236.9,1639
443,239.7,1621
456,242.5,1738
469,245.3,1669
482,248.1,1678
495,250.9,1537
508,253.8,1566
521,256.6,1597
534,259.4,1623
547,262.2,1616
560,265.1,1483
573,267.9,1553
586,270.7,1583
599,273.6,1657
612,276.4,1675
625,279.3,1618
638,282.1,1660
651,285,1611
664,287.8,1570
677,290.7,1653
690,293.5,1528
703,296.4,1597
716,299.2,1571
729,302.1,1641
742,305,1606
755,307.8,1671
768,310.7,1596
781,313.6,1634
794,316.5,1675
807,319.3,1616
820,322.2,1569
833,325.1,1555
846,328,1643
859,330.9,1601
872,333.8,1629
885,336.6,1651
898,339.5,1670
911,342.4,1613
924,345.3,1563
937,348.2,1536
950,351.1,1648
963,354,1551
976,356.9,1666
989,359.8,1611
1002,362.8,1671
1015,365.7,1555
1028,368.6,1707
1041,371.5,1631
1054,374.4,1540
1067,377.3,1672
1080,380.3,1620
1093,383.2,1633
1106,386.1,1708
1119,389.1,1577
1132,392,1581
1145,394.9,1617
1158,397.9,1648
1171,400.8,1657
1184,403.7,1677
1197,406.7,1701
1210,409.6,1658
1223,412.6,1791
1236,415.5,1757
1249,418.5,2164
1262,421.4,2457
1275,424.4,3121
1288,427.3,4075
1301,430.3,5773
1314,433.3,8617
1327,436.2,12772
1340,439.2,19478
1353,442.2,29597
1366,445.1,44111
1379,448.1,58486
1392,451.1,65535
1405,454.1,60833
1418,457,49631
1431,460,40195
1444,463,34572
1457,466,30360
1470,469,25317
1483,472,20362
1496,475,17170
1509,478,15304
1522,481,14369
1535,484,14269
1548,487,14194
1561,490,14757
1574,493,15745
1587,496,17553
1600,499,18625
1613,502,20569
1626,505,22420
1639,508,24311
1652,511,26613
1665,514,28857
1678,517.1,32191
1691,520.1,34139
1704,523.1,36354
1717,526.1,37638
1730,529.2,38875
1743,532.2,39210
1756,535.2,40171
1769,538.3,40505
1782,541.3,40188
1795,544.3,40244
1808,547.4,39432
1821,550.4,39724
1834,553.5,39934
1847,556.5,40306
1860,559.5,41101
1873,562.6,41081
1886,565.6,41790
1899,568.7,42234
1912,571.7,41788
1925,574.8,41527
1938,577.9,40715
1951,580.9,39946
1964,584,38711
1977,587,37085
1990,590.1,35764
2003,593.2,34569
2016,596.3,33281
2029,599.3,32110
2042,602.4,30815
2055,605.5,29621
2068,608.5,28436
2081,611.6,26592
2094,614.7,24747
2107,617.8,23404
2120,620.9,21924
2133,624,19997
2146,627,18549
2159,630.1,17199
2172,633.2,15709
2185,636.3,14763
2198,639.4,14246
2211,642.5,13715
2224,645.6,12610
2237,648.7,11264
2250,651.8,10478
2263,654.9,9366
2276,658,8229
2289,661.1,7528
2302,664.2,6977
2315,667.3,6260
2328,670.4,5661
2341,673.6,5249
2354,676.7,4771
2367,679.8,4373
2380,682.9,4025
2393,686,3922
2406,689.2,3711
2419,692.3,3453
2432,695.4,3472
2445,698.5,3342
2458,701.7,3339
2471,704.8,3523
2484,707.9,3676
2497,711.1,3812
2510,714.2,4133
2523,717.3,4422
2536,720.5,4840
2549,723.6,5349
2562,726.8,5913
2575,729.9,6462
2588,733,7109
2601,736.2,8071
2614,739.3,9534
2627,742.5,11058
2640,745.6,13191
2653,748.8,15634
2666,751.9,18072
2679,755.1,19349
2692,758.3,18247
2705,761.4,15893
2718,764.6,12684
2731,767.7,9614
2744,770.9,7138
2757,774.1,5238
2770,777.2,4027
2783,780.4,3325
2796,783.6,2784
2809,786.8,2622
2822,789.9,2458
2835,793.1,2353
2848,796.3,2305
2861,799.5,2311
2874,802.6,2371
2887,805.8,2429
2900,809,2519
2913,812.2,2619
2926,815.4,2900
2939,818.6,3015
2952,821.7,3326
2965,824.9,3580
2978,828.1,3757
2991,831.3,4221
3004,834.5,4487
3017,837.7,4829
3030,840.9,5286
3043,844.1,5358
3056,847.3,5430
3069,850.5,5031
3082,853.7,4517
3095,856.9,4001
3108,860.1,3267
3121,863.3,2790
3134,866.5,2386
3147,869.7,2215
3160,873,2002
3173,876.2,1844
3186,879.4,1779
3199,882.6,1750
3212,885.8,1632
3225,889,1623
3238,892.3,1565
3251,895.5,1549
3264,898.7,1619
3277,901.9,1548
3290,905.2,1546
3303,908.4,1581
3316,911.6,1598
3329,914.8,1674
3342,918.1,1680
3355,921.3,1775
3368,924.5,1701
3381,927.8,1792
3394,931,1819
3407,934.2,1862
3420,937.5,1954
3433,940.7,2043
3446,944,2023
3459,947.2,2207
3472,950.5,2202
3485,953.7,2225
3498,956.9,2316
3511,960.2,2156
3524,963.4,2010
3537,966.7,1825
3550,969.9,1819
3563,973.2,1666
3576,976.4,1588
3589,979.7,1665
3602,983,1663
3615,986.2,1615
3628,989.5,1536
3641,992.7,1647
3648,994.5,1525